Folder: bpm_2023/13

Note: README.md
# Business Psychology Methods, Aarhus University, 2023

This repository contains data files, scripts and other materials for the course, which do not work well in the university's learning management system.

File: battery.csv
date,health,maximum capacity (mAh),design capacity (mAh),cycles,model
18/08/2020 22.10,101.9261,5186,5088,1,"MacBookPro16,2"
22/08/2020 01.25,103.8915,5286,5088,3,"MacBookPro16,2"
27/08/2020 00.51,101.592,5169,5088,4,"MacBookPro16,2"
02/09/2020 00.25,99.98035,5087,5088,5,"MacBookPro16,2"
07/09/2020 07.00,99.43003,5059,5088,6,"MacBookPro16,2"
11/09/2020 01.36,99.13522,5044,5088,8,"MacBookPro16,2"
16/09/2020 09.27,98.23113,4998,5088,9,"MacBookPro16,2"
21/09/2020 01.59,98.48664,5011,5088,10,"MacBookPro16,2"
26/09/2020 00.02,97.2877,4950,5088,11,"MacBookPro16,2"
01/10/2020 08.42,97.0322,4937,5088,12,"MacBookPro16,2"
07/10/2020 09.21,96.16745,4893,5088,13,"MacBookPro16,2"
12/10/2020 00.10,95.57783,4863,5088,14,"MacBookPro16,2"
18/10/2020 05.45,94.88994,4828,5088,14,"MacBookPro16,2"
23/10/2020 01.15,95.59748,4864,5088,15,"MacBookPro16,2"
28/10/2020 00.44,94.9292,4830,5088,17,"MacBookPro16,2"
01/11/2020 22.00,95.51887,4860,5088,19,"MacBookPro16,2"
06/11/2020 16.33,93.5338,4759,5088,20,"MacBookPro16,2"
11/11/2020 01.14,93.63208,4764,5088,21,"MacBookPro16,2"
16/11/2020 11.25,93.43553,4754,5088,22,"MacBookPro16,2"
21/11/2020 00.18,92.21698,4692,5088,23,"MacBookPro16,2"
26/11/2020 00.00,92.21698,4692,5088,24,"MacBookPro16,2"
01/12/2020 08.38,92.0794,4685,5088,25,"MacBookPro16,2"
07/12/2020 00.01,92.49214,4706,5088,25,"MacBookPro16,2"
12/12/2020 00.35,91.8239,4672,5088,26,"MacBookPro16,2"
16/12/2020 09.05,89.95676,4577,5088,28,"MacBookPro16,2"
21/12/2020 00.05,90.56604,4608,5088,29,"MacBookPro16,2"
26/12/2020 11.00,90.48742,4604,5088,30,"MacBookPro16,2"
01/01/2021 00.40,90.70362,4615,5088,30,"MacBookPro16,2"
06/01/2021 19.00,89.79953,4569,5088,32,"MacBookPro16,2"
11/01/2021 00.00,89.60299,4559,5088,33,"MacBookPro16,2"
15/01/2021 04.12,88.60063,4508,5088,35,"MacBookPro16,2"
20/01/2021 00.28,89.52437,4555,5088,36,"MacBookPro16,2"
25/01/2021 00.59,89.54403,4556,5088,37,"MacBookPro16,2"
30/01/2021 00.05,89.07233,4532,5088,38,"MacBookPro16,2"
04/02/2021 19.55,89.95676,4577,5088,39,"MacBookPro16,2"
10/02/2021 02.04,89.1706,4537,5088,39,"MacBookPro16,2"
14/02/2021 15.14,88.18789,4487,5088,41,"MacBookPro16,2"
19/02/2021 00.28,88.58097,4507,5088,42,"MacBookPro16,2"
24/02/2021 00.00,89.54403,4556,5088,43,"MacBookPro16,2"
02/03/2021 02.03,89.6816,4563,5088,43,"MacBookPro16,2"
09/03/2021 01.18,89.32783,4545,5088,45,"MacBookPro16,2"
15/03/2021 01.59,89.20991,4539,5088,45,"MacBookPro16,2"
20/03/2021 01.49,90.07469,4583,5088,46,"MacBookPro16,2"
26/03/2021 00.47,88.91509,4524,5088,46,"MacBookPro16,2"
30/03/2021 00.00,88.6792,4512,5088,48,"MacBookPro16,2"
06/04/2021 01.05,88.83648,4520,5088,49,"MacBookPro16,2"
12/04/2021 07.00,88.30582,4493,5088,49,"MacBookPro16,2"
18/04/2021 10.30,88.9544,4526,5088,50,"MacBookPro16,2"
23/04/2021 01.54,89.01336,4529,5088,51,"MacBookPro16,2"
29/04/2021 00.22,89.09198,4533,5088,51,"MacBookPro16,2"
04/05/2021 00.31,88.77752,4517,5088,52,"MacBookPro16,2"
10/05/2021 05.00,87.95204,4475,5088,52,"MacBookPro16,2"
15/05/2021 14.27,88.14858,4485,5088,53,"MacBookPro16,2"
21/05/2021 00.15,88.34513,4495,5088,54,"MacBookPro16,2"
26/05/2021 00.55,87.61792,4458,5088,55,"MacBookPro16,2"
31/05/2021 10.10,87.61792,4458,5088,56,"MacBookPro16,2"
06/06/2021 06.15,87.67689,4461,5088,56,"MacBookPro16,2"
11/06/2021 00.01,88.52201,4504,5088,57,"MacBookPro16,2"
16/06/2021 01.35,88.06997,4481,5088,58,"MacBookPro16,2"
23/06/2021 00.02,87.8538,4470,5088,59,"MacBookPro16,2"
28/06/2021 08.58,88.4237,4499,5088,60,"MacBookPro16,2"
03/07/2021 01.00,88.52201,4504,5088,61,"MacBookPro16,2"
09/07/2021 02.01,87.9717,4476,5088,61,"MacBookPro16,2"
14/07/2021 01.45,88.38443,4497,5088,62,"MacBookPro16,2"
20/07/2021 01.56,88.24686,4490,5088,63,"MacBookPro16,2"
25/07/2021 15.30,88.18789,4487,5088,64,"MacBookPro16,2"
03/08/2021 18.19,84.31604,4290,5088,66,"MacBookPro16,2"
09/08/2021 09.58,87.7162,4463,5088,66,"MacBookPro16,2"
14/08/2021 01.44,87.83412,4469,5088,67,"MacBookPro16,2"
20/08/2021 00.28,87.7162,4463,5088,67,"MacBookPro16,2"
26/08/2021 00.47,87.81447,4468,5088,68,"MacBookPro16,2"
31/08/2021 00.23,87.7555,4465,5088,69,"MacBookPro16,2"
05/09/2021 09.30,87.51965,4453,5088,70,"MacBookPro16,2"
09/09/2021 00.59,87.30346,4442,5088,72,"MacBookPro16,2"
14/09/2021 00.14,87.44104,4449,5088,73,"MacBookPro16,2"
18/09/2021 12.51,87.36242,4445,5088,75,"MacBookPro16,2"
25/09/2021 17.39,86.36006,4394,5088,76,"MacBookPro16,2"
30/09/2021 01.07,87.44104,4449,5088,77,"MacBookPro16,2"
06/10/2021 01.54,87.40173,4447,5088,77,"MacBookPro16,2"
11/10/2021 00.32,87.38208,4446,5088,78,"MacBookPro16,2"
17/10/2021 09.15,86.81211,4417,5088,78,"MacBookPro16,2"
22/10/2021 01.57,86.65487,4409,5088,79,"MacBookPro16,2"
29/10/2021 00.17,87.42138,4448,5088,79,"MacBookPro16,2"
02/11/2021 22.11,87.59827,4457,5088,81,"MacBookPro16,2"
08/11/2021 00.09,87.3428,4444,5088,81,"MacBookPro16,2"
13/11/2021 00.08,87.46069,4450,5088,82,"MacBookPro16,2"
18/11/2021 19.25,86.75314,4414,5088,83,"MacBookPro16,2"
23/11/2021 01.26,85.23978,4337,5088,84,"MacBookPro16,2"
28/11/2021 00.30,87.57862,4456,5088,85,"MacBookPro16,2"
03/12/2021 01.59,88.08962,4482,5088,85,"MacBookPro16,2"
08/12/2021 01.45,86.3208,4392,5088,86,"MacBookPro16,2"
14/12/2021 07.58,88.12893,4484,5088,87,"MacBookPro16,2"
18/12/2021 00.46,86.63522,4408,5088,89,"MacBookPro16,2"
22/12/2021 00.04,86.91038,4422,5088,91,"MacBookPro16,2"
31/12/2021 00.47,86.0653,4379,5088,92,"MacBookPro16,2"
06/01/2022 00.02,85.88836,4370,5088,92,"MacBookPro16,2"
11/01/2022 01.09,86.65487,4409,5088,93,"MacBookPro16,2"
15/01/2022 00.12,85.90802,4371,5088,95,"MacBookPro16,2"
19/01/2022 01.39,87.3428,4444,5088,97,"MacBookPro16,2"
25/01/2022 00.15,87.30346,4442,5088,98,"MacBookPro16,2"
31/01/2022 00.57,86.98899,4426,5088,98,"MacBookPro16,2"
05/02/2022 01.14,87.3428,4444,5088,99,"MacBookPro16,2"
11/02/2022 01.27,87.0873,4431,5088,99,"MacBookPro16,2"
16/02/2022 01.52,87.2445,4439,5088,100,"MacBookPro16,2"
21/02/2022 09.00,87.16588,4435,5088,101,"MacBookPro16,2"
27/02/2022 19.30,87.51965,4453,5088,101,"MacBookPro16,2"
05/03/2022 01.15,87.42138,4448,5088,101,"MacBookPro16,2"
10/03/2022 08.11,87.63758,4459,5088,102,"MacBookPro16,2"
15/03/2022 00.22,87.2838,4441,5088,103,"MacBookPro16,2"
20/03/2022 00.37,86.87107,4420,5088,104,"MacBookPro16,2"
25/03/2022 01.31,84.5322,4301,5088,105,"MacBookPro16,2"
31/03/2022 00.39,86.96934,4425,5088,105,"MacBookPro16,2"
04/04/2022 00.15,86.79245,4416,5088,107,"MacBookPro16,2"
09/04/2022 07.30,86.87107,4420,5088,108,"MacBookPro16,2"
15/04/2022 01.50,86.73349,4413,5088,108,"MacBookPro16,2"
21/04/2022 21.51,86.63522,4408,5088,110,"MacBookPro16,2"
27/04/2022 01.35,86.49764,4401,5088,110,"MacBookPro16,2"
02/05/2022 07.18,87.12657,4433,5088,111,"MacBookPro16,2"
07/05/2022 01.51,85.98664,4375,5088,112,"MacBookPro16,2"
12/05/2022 14.16,83.35299,4241,5088,113,"MacBookPro16,2"
18/05/2022 00.42,84.25708,4287,5088,113,"MacBookPro16,2"
23/05/2022 07.45,86.87107,4420,5088,114,"MacBookPro16,2"
28/05/2022 00.36,86.79245,4416,5088,115,"MacBookPro16,2"
02/06/2022 00.55,85.4953,4350,5088,117,"MacBookPro16,2"
07/06/2022 07.43,88.36478,4496,5088,118,"MacBookPro16,2"
12/06/2022 00.45,86.49764,4401,5088,119,"MacBookPro16,2"
17/06/2022 00.25,86.3797,4395,5088,120,"MacBookPro16,2"
22/06/2022 01.46,86.5763,4405,5088,121,"MacBookPro16,2"
27/06/2022 00.49,86.5763,4405,5088,122,"MacBookPro16,2"
01/07/2022 12.19,86.43868,4398,5088,124,"MacBookPro16,2"
09/07/2022 02.30,86.5173,4402,5088,125,"MacBookPro16,2"
15/07/2022 00.13,86.53695,4403,5088,125,"MacBookPro16,2"
21/07/2022 00.45,86.41903,4397,5088,126,"MacBookPro16,2"
25/07/2022 14.58,86.16352,4384,5088,128,"MacBookPro16,2"
29/07/2022 00.10,86.67453,4410,5088,130,"MacBookPro16,2"
03/08/2022 00.25,87.10692,4432,5088,131,"MacBookPro16,2"
08/08/2022 20.09,87.22484,4438,5088,132,"MacBookPro16,2"
14/08/2022 05.15,87.18553,4436,5088,132,"MacBookPro16,2"
18/08/2022 00.22,87.16588,4435,5088,134,"MacBookPro16,2"
23/08/2022 00.06,86.47799,4400,5088,135,"MacBookPro16,2"
28/08/2022 13.45,85.3184,4341,5088,136,"MacBookPro16,2"
02/09/2022 01.47,84.55189,4302,5088,137,"MacBookPro16,2"
07/09/2022 00.18,84.35535,4292,5088,138,"MacBookPro16,2"
12/09/2022 07.15,84.19811,4284,5088,139,"MacBookPro16,2"
17/09/2022 16.48,84.74843,4312,5088,140,"MacBookPro16,2"
22/09/2022 01.24,84.96462,4323,5088,141,"MacBookPro16,2"
27/09/2022 00.37,85.94733,4373,5088,142,"MacBookPro16,2"
01/10/2022 00.05,86.65487,4409,5088,144,"MacBookPro16,2"
07/10/2022 00.00,85.25943,4338,5088,144,"MacBookPro16,2"
11/10/2022 00.40,85.79009,4365,5088,146,"MacBookPro16,2"
17/10/2022 08.40,86.02594,4377,5088,147,"MacBookPro16,2"
22/10/2022 01.15,85.71148,4361,5088,148,"MacBookPro16,2"
27/10/2022 01.05,86.18318,4385,5088,149,"MacBookPro16,2"
31/10/2022 00.51,86.20283,4386,5088,151,"MacBookPro16,2"
05/11/2022 00.21,85.16116,4333,5088,152,"MacBookPro16,2"
10/11/2022 01.42,85.59355,4355,5088,153,"MacBookPro16,2"
14/11/2022 08.30,85.25943,4338,5088,155,"MacBookPro16,2"
19/11/2022 00.27,85.25943,4338,5088,156,"MacBookPro16,2"
24/11/2022 01.46,85.77044,4364,5088,157,"MacBookPro16,2"
29/11/2022 00.38,85.33805,4342,5088,159,"MacBookPro16,2"
04/12/2022 00.06,84.70912,4310,5088,160,"MacBookPro16,2"
09/12/2022 00.23,86.1242,4382,5088,161,"MacBookPro16,2"
13/12/2022 01.31,85.53459,4352,5088,163,"MacBookPro16,2"
18/12/2022 13.14,86.94969,4424,5088,164,"MacBookPro16,2"
23/12/2022 00.13,86.22248,4387,5088,165,"MacBookPro16,2"
30/12/2022 01.12,85.79009,4365,5088,165,"MacBookPro16,2"
03/01/2023 00.00,86.16352,4384,5088,167,"MacBookPro16,2"